energy,intensity
8.952,0.0178
10.172,0.0351
10.268,0.0351
10.994,0.00696
11.81,0.308
11.93,0.014
12.214,0.252
12.261,0.0044
12.389,0.0157
12.523,0.0689
12.642,0.00093
12.65,0.0083
13.852,0.0018
14.293,0.0537
14.565,0.0537
14.624,0.00367
14.683,0.00676
14.692,6e-05
14.735,0.00452
15.262,0.00156
70.832,0.725
72.874,1.224
82.629,0.416
84.866,0.124
